Folder: easyXRD/examples/data/28ID-2-C-XRD/mid-field-detector/Air-scattering

Note: README.md
# easyXRD

[![image](https://img.shields.io/pypi/v/easyxrd.svg)](https://pypi.python.org/pypi/easyxrd)
[![image](https://img.shields.io/pypi/l/easyxrd.svg)](https://pypi.python.org/pypi/easyxrd)
[![image](https://img.shields.io/pypi/pyversions/easyxrd.svg)](https://pypi.python.org/pypi/easyxrd)



We have developed a versatile X-ray diffraction (XRD) analysis tool that utilizes modern and open-source Python packages such as pyFAI, xarray, pymatgen, pybaselines,... for data processing/storage and interfaced to Jupyter notebooks powered with actively developed visualization packages such as ipywidgets, and matplotlib. It provides easy access to the Materials Project database which hosts thousands of crystal structures that can be used for phase identification - a critical part of XRD analysis - and utilizes [GSAS-II suite](https://github.com/AdvancedPhotonSource/GSAS-II) for XRD refinements in a user-friendly and intuitive manner. Ultimate goal of this tool is to make X-ray diffraction analysis easy for users and help them to process, refine, store, and share their XRD data conveniently.

You can try the tutorial notebooks below on Google Colab:



<a target="_blank"  href="https://colab.research.google.com/github/MehmetTopsakal/easyXRD_examples/blob/main/01_basic.ipynb">
    <img src="https://www.tensorflow.org/images/colab_logo_32px.png" /> 01_basic.ipynb</a> <br>
<a target="_blank"  href="https://colab.research.google.com/github/MehmetTopsakal/easyXRD_examples/blob/main/02_intermediate.ipynb">
    <img src="https://www.tensorflow.org/images/colab_logo_32px.png" /> 02_intermediate.ipynb</a> <br>
<a target="_blank"  href="https://colab.research.google.com/github/MehmetTopsakal/easyXRD_examples/blob/main/03_advanced-part-1.ipynb">
    <img src="https://www.tensorflow.org/images/colab_logo_32px.png" /> 03_advanced-part-1.ipynb</a> <br>
<a target="_blank"  href="https://colab.research.google.com/github/MehmetTopsakal/easyXRD_examples/blob/main/03_advanced-part-2.ipynb">
    <img src="https://www.tensorflow.org/images/colab_logo_32px.png" /> 03_advanced-part-2.ipynb</a> <br>


.... more to come






In order to use `easyXRD` Python package, you need to have a Python environment that can be easily installed through Conda.

You can follow the instructions on this link: https://www.anaconda.com/docs/getting-started/miniconda/install



Examples of environment setup is shown below:

* Linux Bash:

```bash
mkdir -p ~/.miniconda3

wget https://repo.anaconda.com/miniconda/Miniconda3-latest-Linux-x86_64.sh -O ~/.miniconda3/miniconda.sh
bash ~/.miniconda3/miniconda.sh -b -u -p ~/.miniconda3
rm ~/.miniconda3/miniconda.sh

source ~/.miniconda3/bin/activate
conda init --all
```

* Windows PowerShell (After installing, open the “Anaconda Powershell Prompt (miniconda3)”):

```bash
wget "https://repo.anaconda.com/miniconda/Miniconda3-latest-Windows-x86_64.exe" -outfile ".\.miniconda.exe"
Start-Process -FilePath ".\.miniconda.exe" -ArgumentList "/S" -Wait
del .\.min

File: img.xy
0.828095 72.4406
0.856175 71.9929
0.884256 71.5056
0.912336 71.0342
0.940416 70.4856
0.968497 69.9905
0.996577 69.5259
1.02466 69.0341
1.05274 68.5411
1.08082 68.0912
1.1089 67.5719
1.13698 67.0467
1.16506 66.5247
1.19314 66.0095
1.22122 65.4398
1.24931 64.9117
1.27739 64.4198
1.30547 63.9505
1.33355 63.4237
1.36163 62.8322
1.38971 62.334
1.41779 61.8605
1.44588 61.2322
1.47396 60.662
1.50204 60.1893
1.53012 59.5764
1.5582 59.1212
1.58629 58.404
1.61437 57.9507
1.64245 57.3166
1.67053 56.7995
1.69862 56.2532
1.7267 55.7339
1.75478 55.133
1.78286 54.5858
1.81095 54.0808
1.83903 53.4795
1.86711 52.9473
1.8952 52.3683
1.92328 51.7973
1.95136 51.1325
1.97945 50.6122
2.00753 50.0278
2.03561 49.4351
2.0637 48.8715
2.09178 48.3293
2.11987 47.7858
2.14795 47.2584
2.17604 46.6308
2.20412 46.1175
2.23221 45.5838
2.26029 45.0034
2.28838 44.5147
2.31646 43.9331
2.34455 43.402
2.37263 42.8661
2.40072 42.2997
2.4288 41.7524
2.45689 41.2064
2.48497 40.611
2.51306 40.108
2.54115 39.5605
2.56923 38.9732
2.59732 38.4769
2.62541 37.926
2.65349 37.3764
2.68158 36.7648
2.70967 36.2463
2.73776 35.6675
2.76584 35.118
2.79393 34.5918
2.82202 34.0506
2.85011 33.5192
2.8782 33.0454
2.90628 32.4667
2.93437 31.9461
2.96246 31.4756
2.99055 31.0098
3.01864 30.4723
3.04673 30.062
3.07482 29.5911
3.10291 29.1129
3.131 28.6234
3.15909 28.2416
3.18718 27.782
3.21527 27.321
3.24336 26.8907
3.27145 26.4752
3.29954 26.1024
3.32763 25.6639
3.35573 25.2561
3.38382 24.8784
3.41191 24.4823
3.44 24.0896
3.46809 23.7445
3.49619 23.3857
3.52428 23.0343
3.55237 22.7365
3.58046 22.3127
3.60856 21.9897
3.63665 21.647
3.66475 21.2895
3.69284 21.0186
3.72093 20.6789
3.74903 20.3801
3.77712 20.0857
3.80522 19.8096
3.83331 19.4879
3.86141 19.1754
3.8895 18.8867
3.9176 18.6224
3.9457 18.3468
3.97379 18.093
4.00189 17.8012
4.02999 17.5593
4.05808 17.2966
4.08618 17.0585
4.11428 16.8439
4.14237 16.6052
4.17047 16.3553
4.19857 16.1242
4.22667 15.8767
4.25477 15.7047
4.28287 15.513
4.31097 15.3762
4.33907 15.0875
4.36717 14.8667
4.39527 14.656
4.42337 14.4461
4.45147 14.2705
4.47957 14.0905
4.50767 13.9066
4.53577 13.717
4.56387 13.521
4.59197 13.3748
4.62008 13.1784
4.64818 13.0236
4.67628 12.8601
4.70438 12.7044
4.73249 12.5578
4.76059 12.3884
4.7887 12.2568
4.8168 12.1062
4.8449 11.971
4.87301 11.8275
4.90111 11.6856
4.92922 11.5449
4.95733 11.4025
4.98543 11.3267
5.01354 11.1874
5.04164 11.0673
5.06975 10.9997
5.09786 10.8589
5.12597 10.7507
5.15407 10.6725
5.18218 10.5761
5.21029 10.4739
5.2384 10.3825
5.26651 10.2944
5.29462 10.1956
5.32273 10.0955
5.35084 10.014
5.37895 9.94543
5.40706 9.85917
5.43517 9.77718
5.46328 9.68815
5.49139 9.61546
5.5195 9.52698
5.54762 9.46483
5.57573 9.38195
5.60384 9.33069
5.63195 9.24849
5.66007 9.18371
5.68818 9.14368
5.7163 9.05163
5.74441 9.01066
5.77253 8.93813
5.80064 8.88527
5.82876 8.84238
5.85687 8.79167
5.88499 8.70831
5.91311 8.66518
5.94122 8.59814
5.96934 8.5694
5.99746 8.51213
6.02558 8.45587
6.0537 8.44523
6.08182 8.44677
6.10993 8.35921
6.13805 8.31672
6.16617 8.25172
6.19429 8.2174
6.22242 8.13639
6.25054 8.05778
6.27866 8.00074
6.30678 7.93844
6.3349 7.9197
6.36303 7.84843
6.39115 7.81803
6.41927 7.77409
6.4474 7.7279
6.47552 7.67969
6.50364 7.64973
6.53177 7.60863
6.55989 7.5542
6.58802 7.52424
6.61615 7.47392
6.64427 7.43897
6.6724 7.42181
6.70053 7.3983
6.72866 7.36489
6.75678 7.31632
6.78491 7.31093
6.81304 7.27915
6.84117 7.23859
6.8693 7.19267
6.89743 7.17464
6.92556 7.15156
6.95369 7.11807
6.98182 7.08462
7.00996 7.08324
7.03809 7.03517
7.06622 7.02381
7.09435 7.0032
7.12249 6.97601
7.15062 6.95489
7.17876 6.93533
7.20689 6.90806
7.23503 6.88099
7.26316 6.87353
7.2913 6.86243
7.31944 6.81842
7.34757 6.82242
7.37571 6.78487
7.40385 6.76757
7.43199 6.76906
7.46013 6.8399
7.48827 6.84467
7.51641 6.83201
7.54455 6.84587
7.57269 6.82617
7.60083 6.77479
7.62897 6.79178
7.65711 6.75912
7.68525 6.76197
7.7134 6.74041
7.74154 6.75895
7.76968 6.84261
7.79783 6.72015
7.82597 6.69966
7.85412 6.68753
7.88226 6.67401
7.91041 6.63597
7.93856 6.63818
7.96671 6.62249
7.99485 6.60201
8.023 6.63287
8.05115 6.61569
8.0793 6.58848
8.10745 6.60061
8.1356 6.5675
8.16375 6.54687
8.1919 6.55908
8.22005 6.53597
8.2482 6.51547
8.27636 6.487
8.30451 6.46988
8.33266 6.45615
8.36082 6.47057
8.38897 6.51141
8.41713 6.49765
8.44528 6.4283
8.47344 6.46233
8.5016 6.43228
8.52975 6.39555
8.55791 6.3371
8.58607 6.40606
8.61423 6.36463
8.64239 6.47629
8.67055 6.42176
8.69871 6.30162
8.72687 6.35108
8.75503 6.32505
8.78319 6.36352
8.81136 6.23745
8.83952 6.20173
8.85762 6.31355