Folder: easyXRD/examples/data/28ID-2-C-XRD/mid-field-detector/Kapton-background

Note: README.md
# easyXRD

[![image](https://img.shields.io/pypi/v/easyxrd.svg)](https://pypi.python.org/pypi/easyxrd)
[![image](https://img.shields.io/pypi/l/easyxrd.svg)](https://pypi.python.org/pypi/easyxrd)
[![image](https://img.shields.io/pypi/pyversions/easyxrd.svg)](https://pypi.python.org/pypi/easyxrd)



We have developed a versatile X-ray diffraction (XRD) analysis tool that utilizes modern and open-source Python packages such as pyFAI, xarray, pymatgen, pybaselines,... for data processing/storage and interfaced to Jupyter notebooks powered with actively developed visualization packages such as ipywidgets, and matplotlib. It provides easy access to the Materials Project database which hosts thousands of crystal structures that can be used for phase identification - a critical part of XRD analysis - and utilizes [GSAS-II suite](https://github.com/AdvancedPhotonSource/GSAS-II) for XRD refinements in a user-friendly and intuitive manner. Ultimate goal of this tool is to make X-ray diffraction analysis easy for users and help them to process, refine, store, and share their XRD data conveniently.

You can try the tutorial notebooks below on Google Colab:



<a target="_blank"  href="https://colab.research.google.com/github/MehmetTopsakal/easyXRD_examples/blob/main/01_basic.ipynb">
    <img src="https://www.tensorflow.org/images/colab_logo_32px.png" /> 01_basic.ipynb</a> <br>
<a target="_blank"  href="https://colab.research.google.com/github/MehmetTopsakal/easyXRD_examples/blob/main/02_intermediate.ipynb">
    <img src="https://www.tensorflow.org/images/colab_logo_32px.png" /> 02_intermediate.ipynb</a> <br>
<a target="_blank"  href="https://colab.research.google.com/github/MehmetTopsakal/easyXRD_examples/blob/main/03_advanced-part-1.ipynb">
    <img src="https://www.tensorflow.org/images/colab_logo_32px.png" /> 03_advanced-part-1.ipynb</a> <br>
<a target="_blank"  href="https://colab.research.google.com/github/MehmetTopsakal/easyXRD_examples/blob/main/03_advanced-part-2.ipynb">
    <img src="https://www.tensorflow.org/images/colab_logo_32px.png" /> 03_advanced-part-2.ipynb</a> <br>


.... more to come






In order to use `easyXRD` Python package, you need to have a Python environment that can be easily installed through Conda.

You can follow the instructions on this link: https://www.anaconda.com/docs/getting-started/miniconda/install



Examples of environment setup is shown below:

* Linux Bash:

```bash
mkdir -p ~/.miniconda3

wget https://repo.anaconda.com/miniconda/Miniconda3-latest-Linux-x86_64.sh -O ~/.miniconda3/miniconda.sh
bash ~/.miniconda3/miniconda.sh -b -u -p ~/.miniconda3
rm ~/.miniconda3/miniconda.sh

source ~/.miniconda3/bin/activate
conda init --all
```

* Windows PowerShell (After installing, open the “Anaconda Powershell Prompt (miniconda3)”):

```bash
wget "https://repo.anaconda.com/miniconda/Miniconda3-latest-Windows-x86_64.exe" -outfile ".\.miniconda.exe"
Start-Process -FilePath ".\.miniconda.exe" -ArgumentList "/S" -Wait
del .\.min

File: img.xy
0.828095 102.962
0.856175 99.9282
0.884256 97.4048
0.912336 94.9017
0.940416 92.9128
0.968497 90.9814
0.996577 89.2273
1.02466 87.8356
1.05274 86.5806
1.08082 85.5136
1.1089 84.5505
1.13698 83.8712
1.16506 83.3651
1.19314 82.9562
1.22122 82.6258
1.24931 82.5929
1.27739 82.5074
1.30547 82.5328
1.33355 82.4167
1.36163 82.0486
1.38971 81.5569
1.41779 81.1576
1.44588 80.6178
1.47396 80.0705
1.50204 79.6909
1.53012 79.3529
1.5582 79.0373
1.58629 78.9302
1.61437 78.9887
1.64245 79.076
1.67053 79.2809
1.69862 79.6083
1.7267 79.9328
1.75478 80.3355
1.78286 80.5584
1.81095 81.0209
1.83903 81.4002
1.86711 81.8312
1.8952 82.1998
1.92328 82.4536
1.95136 82.7348
1.97945 82.7333
2.00753 82.6279
2.03561 82.5094
2.0637 82.2003
2.09178 81.7678
2.11987 81.2378
2.14795 80.5013
2.17604 79.7299
2.20412 78.866
2.23221 77.967
2.26029 76.8235
2.28838 75.7254
2.31646 74.5569
2.34455 73.3922
2.37263 72.256
2.40072 71.081
2.4288 69.9973
2.45689 68.8288
2.48497 67.5987
2.51306 66.4055
2.54115 65.2986
2.56923 64.2247
2.59732 63.1228
2.62541 62.0366
2.65349 60.9096
2.68158 59.8612
2.70967 58.7947
2.73776 57.8347
2.76584 56.9366
2.79393 55.9574
2.82202 55.1341
2.85011 54.2822
2.8782 53.4835
2.90628 52.6989
2.93437 52.0222
2.96246 51.3277
2.99055 50.5661
3.01864 49.813
3.04673 49.117
3.07482 48.3337
3.10291 47.6107
3.131 46.6865
3.15909 45.8263
3.18718 45.0156
3.21527 44.217
3.24336 43.351
3.27145 42.6145
3.29954 41.7854
3.32763 41.3321
3.35573 40.226
3.38382 39.4707
3.41191 38.7353
3.44 38.0646
3.46809 37.3709
3.49619 36.7569
3.52428 36.2102
3.55237 35.6444
3.58046 35.0747
3.60856 34.5
3.63665 33.9512
3.66475 33.4519
3.69284 32.9383
3.72093 32.4295
3.74903 32.0006
3.77712 31.5604
3.80522 31.1186
3.83331 30.7297
3.86141 30.3265
3.8895 29.9359
3.9176 29.536
3.9457 29.1807
3.97379 28.8745
4.00189 28.5291
4.02999 28.275
4.05808 27.9875
4.08618 27.7253
4.11428 27.4776
4.14237 27.2353
4.17047 27.0259
4.19857 26.7759
4.22667 26.5615
4.25477 26.338
4.28287 26.2229
4.31097 26.1153
4.33907 25.7754
4.36717 25.5369
4.39527 25.3013
4.42337 25.0872
4.45147 24.8627
4.47957 24.6766
4.50767 24.423
4.53577 24.2349
4.56387 24.1287
4.59197 23.7547
4.62008 23.5238
4.64818 23.3391
4.67628 23.1448
4.70438 22.981
4.73249 22.7835
4.76059 22.6077
4.7887 22.4501
4.8168 22.2856
4.8449 22.1092
4.87301 21.9759
4.90111 21.834
4.92922 21.7291
4.95733 21.6208
4.98543 21.6098
5.01354 21.4575
5.04164 21.3827
5.06975 21.3036
5.09786 21.2435
5.12597 21.1361
5.15407 21.0673
5.18218 20.9345
5.21029 20.8566
5.2384 20.6906
5.26651 20.5844
5.29462 20.4589
5.32273 20.3136
5.35084 20.1546
5.37895 20.006
5.40706 19.8159
5.43517 19.6013
5.46328 19.4639
5.49139 19.3094
5.5195 19.1181
5.54762 18.9802
5.57573 18.8429
5.60384 18.6665
5.63195 18.5366
5.66007 18.4361
5.68818 18.3085
5.7163 18.225
5.74441 18.0934
5.77253 17.9938
5.80064 17.8964
5.82876 17.7966
5.85687 17.705
5.88499 17.6362
5.91311 17.5598
5.94122 17.504
5.96934 17.456
5.99746 17.3705
6.02558 17.2914
6.0537 17.2815
6.08182 17.2536
6.10993 17.1812
6.13805 17.0869
6.16617 17.0115
6.19429 16.9654
6.22242 16.8686
6.25054 16.7682
6.27866 16.7064
6.30678 16.6096
6.3349 16.5529
6.36303 16.5032
6.39115 16.4251
6.41927 16.3847
6.4474 16.3233
6.47552 16.2488
6.50364 16.2007
6.53177 16.1541
6.55989 16.1147
6.58802 16.0482
6.61615 16.0155
6.64427 15.9845
6.6724 15.9268
6.70053 15.8757
6.72866 15.8843
6.75678 15.8197
6.78491 15.8032
6.81304 15.7386
6.84117 15.7117
6.8693 15.6789
6.89743 15.674
6.92556 15.6519
6.95369 15.6157
6.98182 15.5979
7.00996 15.5591
7.03809 15.5338
7.06622 15.5299
7.09435 15.4975
7.12249 15.4515
7.15062 15.4463
7.17876 15.4697
7.20689 15.4033
7.23503 15.357
7.26316 15.3364
7.2913 15.3252
7.31944 15.3267
7.34757 15.2711
7.37571 15.2385
7.40385 15.2261
7.43199 15.2045
7.46013 15.302
7.48827 15.2913
7.51641 15.3439
7.54455 15.2945
7.57269 15.3159
7.60083 15.227
7.62897 15.2353
7.65711 15.2185
7.68525 15.1752
7.7134 15.169
7.74154 15.2154
7.76968 15.2868
7.79783 15.2052
7.82597 15.1554
7.85412 15.1337
7.88226 15.0822
7.91041 15.086
7.93856 15.1029
7.96671 15.0403
7.99485 15.0308
8.023 15.0421
8.05115 15.0711
8.0793 15.0842
8.10745 15.0682
8.1356 15.0398
8.16375 15.0421
8.1919 15.0603
8.22005 15.0202
8.2482 15.0567
8.27636 15.0285
8.30451 15.0665
8.33266 15.0049
8.36082 15.0235
8.38897 15.0015
8.41713 15.0442
8.44528 14.9807
8.47344 15.0316
8.5016 14.9504
8.52975 14.8534
8.55791 14.8124
8.58607 14.9551
8.61423 14.8505
8.64239 14.8267
8.67055 14.7453
8.69871 14.6489
8.72687 14.6418
8.75503 14.6112
8.78319 14.4569
8.81136 14.4365
8.83952 14.6182
8.85762 14.6017