Folder: easyXRD/examples/data/28ID-2-C-XRD/mid-field-detector/NIST-CeO2

Note: examples/data/28ID-2-C-XRD/mid-field-detector/NIST-CeO2/img.yaml
an_config:
  ANALYSIS:
    auto_mask: 'True'
    correctsolidangle: 'True'
    edge: '20'
    file_prefix: '{start[sample_name]}_{start[readable_time]}_{start[original_run_uid]:6.6}_'
    lower_thresh: '0.'
    normalization_factor: '1.0'
    npt: '3000'
    pdfgetx: 'True'
    polarization_factor: '0.99'
    qmax: '18.10'
    qmaxinst: '22.60'
    qmin: '0.50'
    rmax: '20.0'
    rmin: '0.50'
    rpoly: '1.2'
    rstep: '0.01'
    save_file: 'True'
    tiff_base: /nsls2/data/xpd-new/legacy/processed/xpdUser/tiff_base/
  BASIC:
    name: xpd
    version: 1.0.0
  CALIBRATION:
    calib_base: /nsls2/data/xpd-new/legacy/processed/xpdUser/config_base/
    default_calibrant: Ni
    poni_file: xpdAcq_calib_info.poni
  DATABASE:
    an_db: xpd-analysis
    raw_db: xpd
  FUNCTIONALITY:
    do_calibration: 'True'
    dump_to_db: 'False'
    export_files: 'False'
    send_messages: 'True'
    visualize_data: 'False'
  LISTEN TO:
    host: xf28id2-ca2
    port: '5578'
    prefix: raw
  METADATA:
    bkgd_sample_name_key: bkgd_sample_name
    calib_identifier: is_calibration
    calibrant_key: sample_composition
    calibration_md_key: calibration_md
    composition_key: sample_composition
    detector_key: detector
    dk_id_key: sc_dk_field_uid
    dk_identifier: dark_frame
    sample_name_key: sample_name
    wavelength_key: bt_wavelength
  PUBLISH TO:
    host: xf28id2-ca2
    port: '5577'
    prefix: an
  SUITCASE:
    directory_template: '{start[sample_name]}'
    exports: tiff,json,csv,txt
    file_prefix: '{start[original_run_uid]}_{start[readable_time]}_{start[sample_name]}_'
    tiff_base: /nsls2/data/xpd-new/legacy/processed/xpdUser/tiff_base/
  VISUALIZATION:
    visualizers: dk_sub_image,masked_image,chi,fq,gr
analysis_stage: raw
beamline_config:
  Verification time: '2023-11-14 21:25:12'
  Verified by: mt
beamline_id: 28-ID-2
bt_experimenters:
- Mehmet
- Hui
- Maria
bt_piLast: SimerGill
bt_safN: '312528'
bt_uid: 9b1f4b51
bt_wavelength: 0.1814
calibration_md:
  Detector: Detector
  Detector_config:
    max_shape:
    - 1944
    - 3072
    pixel1: 7.5e-05
    pixel2: 7.5e-05
  Distance: 0.8755693181429028
  Poni1: 0.07138589200197183
  Poni2: 0.03863566986142411
  Rot1: -0.0854786519310626
  Rot2: 0.005966721869526099
  Rot3: -1.3918066208175287e-06
  Wavelength: 1.814e-11
  poni_version: 2
detector_calibration_client_uid: f396e0ad-a33c-4bf6-9cb0-1a03b2dfbaa5
detectors:
- dexela1
facility: NSLS-II
filter_positions:
  flt1: Out
  flt2: Out
  flt3: Out
  flt4: Out
group: XPD
hints:
  dimensions:
  - !!python/tuple
    - !!python/tuple
      - time
    - primary
num_intervals: 0
num_points: 1
original_run_uid: 4a8c77f2-1a1d-46f0-8056-e69172f87555
pdfstream_version: 0.5.2
plan_args:
  detectors:
  - DEX_PerkinElmerContinuous(prefix='XF:28IDC-ES:1{Det:DEX}', name='dexela1', read_attrs=['tiff',
    'stats1', 'stats1.total'], configuration_attrs=['cam', 'cam.acquire_period', 'cam.acquire_time',
    'cam.bin_x', 'cam.bin_y', 'cam.image_mode', 'cam.manuf

Note: README.md
# easyXRD

[![image](https://img.shields.io/pypi/v/easyxrd.svg)](https://pypi.python.org/pypi/easyxrd)
[![image](https://img.shields.io/pypi/l/easyxrd.svg)](https://pypi.python.org/pypi/easyxrd)
[![image](https://img.shields.io/pypi/pyversions/easyxrd.svg)](https://pypi.python.org/pypi/easyxrd)



We have developed a versatile X-ray diffraction (XRD) analysis tool that utilizes modern and open-source Python packages such as pyFAI, xarray, pymatgen, pybaselines,... for data processing/storage and interfaced to Jupyter notebooks powered with actively developed visualization packages such as ipywidgets, and matplotlib. It provides easy access to the Materials Project database which hosts thousands of crystal structures that can be used for phase identification - a critical part of XRD analysis - and utilizes [GSAS-II suite](https://github.com/AdvancedPhotonSource/GSAS-II) for XRD refinements in a user-friendly and intuitive manner. Ultimate goal of this tool is to make X-ray diffraction analysis easy for users and help them to process, refine, store, and share their XRD data conveniently.

You can try the tutorial notebooks below on Google Colab:



<a target="_blank"  href="https://colab.research.google.com/github/MehmetTopsakal/easyXRD_examples/blob/main/01_basic.ipynb">
    <img src="https://www.tensorflow.org/images/colab_logo_32px.png" /> 01_basic.ipynb</a> <br>
<a target="_blank"  href="https://colab.research.google.com/github/MehmetTopsakal/easyXRD_examples/blob/main/02_intermediate.ipynb">
    <img src="https://www.tensorflow.org/images/colab_logo_32px.png" /> 02_intermediate.ipynb</a> <br>
<a target="_blank"  href="https://colab.research.google.com/github/MehmetTopsakal/easyXRD_examples/blob/main/03_advanced-part-1.ipynb">
    <img src="https://www.tensorflow.org/images/colab_logo_32px.png" /> 03_advanced-part-1.ipynb</a> <br>
<a target="_blank"  href="https://colab.research.google.com/github/MehmetTopsakal/easyXRD_examples/blob/main/03_advanced-part-2.ipynb">
    <img src="https://www.tensorflow.org/images/colab_logo_32px.png" /> 03_advanced-part-2.ipynb</a> <br>


.... more to come






In order to use `easyXRD` Python package, you need to have a Python environment that can be easily installed through Conda.

You can follow the instructions on this link: https://www.anaconda.com/docs/getting-started/miniconda/install



Examples of environment setup is shown below:

* Linux Bash:

```bash
mkdir -p ~/.miniconda3

wget https://repo.anaconda.com/miniconda/Miniconda3-latest-Linux-x86_64.sh -O ~/.miniconda3/miniconda.sh
bash ~/.miniconda3/miniconda.sh -b -u -p ~/.miniconda3
rm ~/.miniconda3/miniconda.sh

source ~/.miniconda3/bin/activate
conda init --all
```

* Windows PowerShell (After installing, open the “Anaconda Powershell Prompt (miniconda3)”):

```bash
wget "https://repo.anaconda.com/miniconda/Miniconda3-latest-Windows-x86_64.exe" -outfile ".\.miniconda.exe"
Start-Process -FilePath ".\.miniconda.exe" -ArgumentList "/S" -Wait
del .\.min

File: img.xy
0.828095 125.428
0.856175 122.92
0.884256 121.041
0.912336 119.001
0.940416 117.398
0.968497 115.651
0.996577 114.314
1.02466 113.07
1.05274 112.12
1.08082 111.4
1.1089 110.612
1.13698 110.082
1.16506 109.699
1.19314 109.443
1.22122 109.269
1.24931 109.255
1.27739 109.26
1.30547 109.215
1.33355 109.102
1.36163 108.692
1.38971 108.171
1.41779 107.764
1.44588 107.095
1.47396 106.553
1.50204 105.926
1.53012 105.31
1.5582 104.886
1.58629 104.468
1.61437 104.226
1.64245 103.902
1.67053 103.764
1.69862 103.576
1.7267 103.432
1.75478 103.433
1.78286 103.199
1.81095 103.089
1.83903 103.026
1.86711 102.937
1.8952 102.842
1.92328 102.892
1.95136 102.648
1.97945 102.473
2.00753 102.211
2.03561 101.898
2.0637 101.601
2.09178 101.302
2.11987 100.992
2.14795 100.441
2.17604 100.011
2.20412 99.5199
2.23221 99.0133
2.26029 98.4246
2.28838 97.9884
2.31646 97.2929
2.34455 96.7934
2.37263 96.3084
2.40072 95.762
2.4288 95.2448
2.45689 94.6956
2.48497 94.2494
2.51306 93.7814
2.54115 93.3475
2.56923 92.8084
2.59732 92.3965
2.62541 91.9736
2.65349 91.5672
2.68158 91.077
2.70967 90.7532
2.73776 90.3346
2.76584 89.8546
2.79393 89.5746
2.82202 89.2499
2.85011 88.9543
2.8782 88.7111
2.90628 88.5066
2.93437 88.2917
2.96246 88.2514
2.99055 88.1729
3.01864 87.957
3.04673 87.9123
3.07482 87.7945
3.10291 87.788
3.131 88.0652
3.15909 88.5995
3.18718 89.747
3.21527 92.5305
3.24336 100.275
3.27145 138.146
3.29954 751.096
3.32763 8048.48
3.35573 486.65
3.38382 123.722
3.41191 94.6401
3.44 87.1657
3.46809 84.134
3.49619 81.9021
3.52428 80.5837
3.55237 79.5802
3.58046 78.6746
3.60856 78.0066
3.63665 77.4462
3.66475 77.0099
3.69284 76.7388
3.72093 76.8497
3.74903 77.9436
3.77712 83.3335
3.80522 136.885
3.83331 1999.34
3.86141 476.35
3.8895 92.6178
3.9176 76.8539
3.9457 73.5242
3.97379 72.1264
4.00189 71.236
4.02999 70.7337
4.05808 70.0522
4.08618 69.5192
4.11428 69.1327
4.14237 68.7479
4.17047 68.3875
4.19857 68.0571
4.22667 67.7894
4.25477 67.5336
4.28287 67.4644
4.31097 67.4487
4.33907 66.8732
4.36717 66.5546
4.39527 66.3717
4.42337 66.1293
4.45147 65.9527
4.47957 66.0454
4.50767 65.5757
4.53577 65.4299
4.56387 65.1898
4.59197 65.0299
4.62008 64.8498
4.64818 64.7367
4.67628 64.6596
4.70438 64.564
4.73249 64.4681
4.76059 64.4215
4.7887 64.3546
4.8168 64.4703
4.8449 64.3945
4.87301 64.3221
4.90111 64.3943
4.92922 64.4124
4.95733 64.433
4.98543 64.6596
5.01354 64.7672
5.04164 64.9557
5.06975 65.0858
5.09786 65.3576
5.12597 65.5858
5.15407 65.893
5.18218 66.2319
5.21029 66.6557
5.2384 67.2683
5.26651 68.0724
5.29462 69.3168
5.32273 71.533
5.35084 76.8149
5.37895 100.781
5.40706 465.337
5.43517 4733.54
5.46328 326.136
5.49139 92.6182
5.5195 74.9248
5.54762 70.3852
5.57573 68.4303
5.60384 67.3485
5.63195 66.5793
5.66007 66.0632
5.68818 65.6116
5.7163 65.3131
5.74441 65.099
5.77253 64.9184
5.80064 64.7762
5.82876 64.6147
5.85687 64.5583
5.88499 64.4946
5.91311 64.4967
5.94122 64.5954
5.96934 64.7656
5.99746 64.6129
6.02558 64.6883
6.0537 64.879
6.08182 65.1848
6.10993 65.405
6.13805 65.6139
6.16617 66.021
6.19429 66.6662
6.22242 67.5292
6.25054 69.006
6.27866 72.1751
6.30678 82.7319
6.3349 167.822
6.36303 3209.25
6.39115 1120.87
6.41927 110.731
6.4474 76.2294
6.47552 70.3455
6.50364 68.1099
6.53177 67.1009
6.55989 66.839
6.58802 67.97
6.61615 80.3219
6.64427 557.008
6.6724 338.271
6.70053 73.8825
6.72866 65.6161
6.75678 64.1766
6.78491 63.5192
6.81304 63.1182
6.84117 62.8103
6.8693 62.5554
6.89743 62.379
6.92556 62.2088
6.95369 62.051
6.98182 61.9491
7.00996 61.8867
7.03809 61.8243
7.06622 61.82
7.09435 61.7253
7.12249 61.5583
7.15062 61.5548
7.17876 61.5342
7.20689 61.5235
7.23503 61.48
7.26316 61.5394
7.2913 61.5551
7.31944 61.5196
7.34757 61.5659
7.37571 61.6669
7.40385 61.7166
7.43199 61.879
7.46013 62.0794
7.48827 62.2723
7.51641 62.5007
7.54455 62.7377
7.57269 63.2227
7.60083 64.1831
7.62897 67.607
7.65711 111.892
7.68525 770.075
7.7134 137.41
7.74154 68.3816
7.76968 64.8529
7.79783 63.9906
7.82597 63.6034
7.85412 63.5065
7.88226 63.4852
7.91041 63.5217
7.93856 63.5039
7.96671 63.5617
7.99485 63.5884
8.023 63.7622
8.05115 63.9371
8.0793 64.0834
8.10745 64.3034
8.1356 64.4713
8.16375 64.7014
8.1919 65.1755
8.22005 65.6599
8.2482 66.3263
8.27636 67.6562
8.30451 71.0282
8.33266 91.7598
8.36082 712.514
8.38897 1099.51
8.41713 110.722
8.44528 73.2651
8.47344 69.4024
8.5016 69.0049
8.52975 71.5649
8.55791 95.5241
8.58607 762.845
8.61423 491.091
8.64239 83.5452
8.67055 68.8886
8.69871 66.4304
8.72687 65.4187
8.75503 64.7991
8.78319 64.5717
8.81136 64.658
8.83952 64.955
8.85762 64.9193