Folder: easyXRD/examples/data/28ID-2-C-XRD/mid-field-detector/NIST-LaB6

Note: examples/data/28ID-2-C-XRD/mid-field-detector/NIST-LaB6/img.yaml
an_config:
  ANALYSIS:
    auto_mask: 'True'
    correctsolidangle: 'True'
    edge: '20'
    file_prefix: '{start[sample_name]}_{start[readable_time]}_{start[original_run_uid]:6.6}_'
    lower_thresh: '0.'
    normalization_factor: '1.0'
    npt: '3000'
    pdfgetx: 'True'
    polarization_factor: '0.99'
    qmax: '18.10'
    qmaxinst: '22.60'
    qmin: '0.50'
    rmax: '20.0'
    rmin: '0.50'
    rpoly: '1.2'
    rstep: '0.01'
    save_file: 'True'
    tiff_base: /nsls2/data/xpd-new/legacy/processed/xpdUser/tiff_base/
  BASIC:
    name: xpd
    version: 1.0.0
  CALIBRATION:
    calib_base: /nsls2/data/xpd-new/legacy/processed/xpdUser/config_base/
    default_calibrant: Ni
    poni_file: xpdAcq_calib_info.poni
  DATABASE:
    an_db: xpd-analysis
    raw_db: xpd
  FUNCTIONALITY:
    do_calibration: 'True'
    dump_to_db: 'False'
    export_files: 'False'
    send_messages: 'True'
    visualize_data: 'False'
  LISTEN TO:
    host: xf28id2-ca2
    port: '5578'
    prefix: raw
  METADATA:
    bkgd_sample_name_key: bkgd_sample_name
    calib_identifier: is_calibration
    calibrant_key: sample_composition
    calibration_md_key: calibration_md
    composition_key: sample_composition
    detector_key: detector
    dk_id_key: sc_dk_field_uid
    dk_identifier: dark_frame
    sample_name_key: sample_name
    wavelength_key: bt_wavelength
  PUBLISH TO:
    host: xf28id2-ca2
    port: '5577'
    prefix: an
  SUITCASE:
    directory_template: '{start[sample_name]}'
    exports: tiff,json,csv,txt
    file_prefix: '{start[original_run_uid]}_{start[readable_time]}_{start[sample_name]}_'
    tiff_base: /nsls2/data/xpd-new/legacy/processed/xpdUser/tiff_base/
  VISUALIZATION:
    visualizers: dk_sub_image,masked_image,chi,fq,gr
analysis_stage: raw
beamline_config:
  Verification time: '2023-11-14 21:25:12'
  Verified by: mt
beamline_id: 28-ID-2
bt_experimenters:
- Mehmet
- Hui
- Maria
bt_piLast: SimerGill
bt_safN: '312528'
bt_uid: 9b1f4b51
bt_wavelength: 0.1814
calibration_md:
  Detector: Detector
  Detector_config:
    max_shape:
    - 1944
    - 3072
    pixel1: 7.5e-05
    pixel2: 7.5e-05
  Distance: 0.8755693181429028
  Poni1: 0.07138589200197183
  Poni2: 0.03863566986142411
  Rot1: -0.0854786519310626
  Rot2: 0.005966721869526099
  Rot3: -1.3918066208175287e-06
  Wavelength: 1.814e-11
  poni_version: 2
detector_calibration_client_uid: f396e0ad-a33c-4bf6-9cb0-1a03b2dfbaa5
detectors:
- dexela1
facility: NSLS-II
filter_positions:
  flt1: Out
  flt2: Out
  flt3: Out
  flt4: Out
group: XPD
hints:
  dimensions:
  - !!python/tuple
    - !!python/tuple
      - time
    - primary
num_intervals: 0
num_points: 1
original_run_uid: 7b54f345-bf07-4e33-a601-8573f63a01f0
pdfstream_version: 0.5.2
plan_args:
  detectors:
  - DEX_PerkinElmerContinuous(prefix='XF:28IDC-ES:1{Det:DEX}', name='dexela1', read_attrs=['tiff',
    'stats1', 'stats1.total'], configuration_attrs=['cam', 'cam.acquire_period', 'cam.acquire_time',
    'cam.bin_x', 'cam.bin_y', 'cam.image_mode', 'cam.manuf

Note: README.md
# easyXRD

[![image](https://img.shields.io/pypi/v/easyxrd.svg)](https://pypi.python.org/pypi/easyxrd)
[![image](https://img.shields.io/pypi/l/easyxrd.svg)](https://pypi.python.org/pypi/easyxrd)
[![image](https://img.shields.io/pypi/pyversions/easyxrd.svg)](https://pypi.python.org/pypi/easyxrd)



We have developed a versatile X-ray diffraction (XRD) analysis tool that utilizes modern and open-source Python packages such as pyFAI, xarray, pymatgen, pybaselines,... for data processing/storage and interfaced to Jupyter notebooks powered with actively developed visualization packages such as ipywidgets, and matplotlib. It provides easy access to the Materials Project database which hosts thousands of crystal structures that can be used for phase identification - a critical part of XRD analysis - and utilizes [GSAS-II suite](https://github.com/AdvancedPhotonSource/GSAS-II) for XRD refinements in a user-friendly and intuitive manner. Ultimate goal of this tool is to make X-ray diffraction analysis easy for users and help them to process, refine, store, and share their XRD data conveniently.

You can try the tutorial notebooks below on Google Colab:



<a target="_blank"  href="https://colab.research.google.com/github/MehmetTopsakal/easyXRD_examples/blob/main/01_basic.ipynb">
    <img src="https://www.tensorflow.org/images/colab_logo_32px.png" /> 01_basic.ipynb</a> <br>
<a target="_blank"  href="https://colab.research.google.com/github/MehmetTopsakal/easyXRD_examples/blob/main/02_intermediate.ipynb">
    <img src="https://www.tensorflow.org/images/colab_logo_32px.png" /> 02_intermediate.ipynb</a> <br>
<a target="_blank"  href="https://colab.research.google.com/github/MehmetTopsakal/easyXRD_examples/blob/main/03_advanced-part-1.ipynb">
    <img src="https://www.tensorflow.org/images/colab_logo_32px.png" /> 03_advanced-part-1.ipynb</a> <br>
<a target="_blank"  href="https://colab.research.google.com/github/MehmetTopsakal/easyXRD_examples/blob/main/03_advanced-part-2.ipynb">
    <img src="https://www.tensorflow.org/images/colab_logo_32px.png" /> 03_advanced-part-2.ipynb</a> <br>


.... more to come






In order to use `easyXRD` Python package, you need to have a Python environment that can be easily installed through Conda.

You can follow the instructions on this link: https://www.anaconda.com/docs/getting-started/miniconda/install



Examples of environment setup is shown below:

* Linux Bash:

```bash
mkdir -p ~/.miniconda3

wget https://repo.anaconda.com/miniconda/Miniconda3-latest-Linux-x86_64.sh -O ~/.miniconda3/miniconda.sh
bash ~/.miniconda3/miniconda.sh -b -u -p ~/.miniconda3
rm ~/.miniconda3/miniconda.sh

source ~/.miniconda3/bin/activate
conda init --all
```

* Windows PowerShell (After installing, open the “Anaconda Powershell Prompt (miniconda3)”):

```bash
wget "https://repo.anaconda.com/miniconda/Miniconda3-latest-Windows-x86_64.exe" -outfile ".\.miniconda.exe"
Start-Process -FilePath ".\.miniconda.exe" -ArgumentList "/S" -Wait
del .\.min

File: img.xy
0.828095 117.742
0.856175 114.908
0.884256 112.523
0.912336 110.366
0.940416 108.408
0.968497 106.538
0.996577 104.958
1.02466 103.7
1.05274 102.538
1.08082 101.606
1.1089 100.736
1.13698 100.173
1.16506 99.9027
1.19314 99.4459
1.22122 99.3973
1.24931 99.3926
1.27739 99.4851
1.30547 99.3919
1.33355 99.3403
1.36163 98.8762
1.38971 98.4075
1.41779 97.8522
1.44588 97.1672
1.47396 96.5181
1.50204 95.8436
1.53012 95.3092
1.5582 94.7362
1.58629 94.3405
1.61437 93.9024
1.64245 93.6376
1.67053 93.4444
1.69862 93.2703
1.7267 93.1216
1.75478 93.0434
1.78286 92.8837
1.81095 92.9049
1.83903 92.9141
1.86711 92.8555
1.8952 92.734
1.92328 92.7935
1.95136 92.5734
1.97945 92.3838
2.00753 92.0889
2.03561 91.8528
2.0637 91.4981
2.09178 91.1721
2.11987 90.7918
2.14795 90.2318
2.17604 89.7643
2.20412 89.2688
2.23221 88.7094
2.26029 88.1002
2.28838 87.6493
2.31646 87.0928
2.34455 86.7439
2.37263 86.6087
2.40072 87.0794
2.4288 89.9412
2.45689 112.411
2.48497 913.879
2.51306 1126.42
2.54115 114.7
2.56923 86.8596
2.59732 82.4646
2.62541 80.5776
2.65349 79.4114
2.68158 78.3622
2.70967 77.6397
2.73776 76.966
2.76584 76.1699
2.79393 75.4804
2.82202 74.8835
2.85011 74.2415
2.8782 73.6447
2.90628 73.1177
2.93437 72.5881
2.96246 72.1183
2.99055 71.6142
3.01864 71.0954
3.04673 70.5669
3.07482 69.9713
3.10291 69.4134
3.131 68.8601
3.15909 68.2897
3.18718 67.6738
3.21527 67.1685
3.24336 66.6158
3.27145 66.1438
3.29954 65.7264
3.32763 65.2982
3.35573 65.153
3.38382 65.0755
3.41191 65.5848
3.44 67.27
3.46809 74.0173
3.49619 127.595
3.52428 2191.21
3.55237 1339.23
3.58046 106.28
3.60856 69.1023
3.63665 62.9111
3.66475 60.5397
3.69284 59.2296
3.72093 58.3117
3.74903 57.4931
3.77712 56.8779
3.80522 56.3102
3.83331 55.798
3.86141 55.32
3.8895 54.8673
3.9176 54.5129
3.9457 54.1613
3.97379 53.8197
4.00189 53.5374
4.02999 53.3165
4.05808 53.2686
4.08618 52.8755
4.11428 52.76
4.14237 52.7195
4.17047 52.7049
4.19857 52.8752
4.22667 53.4614
4.25477 55.3896
4.28287 67.0226
4.31097 346.38
4.33907 1398.89
4.36717 96.6388
4.39527 56.9411
4.42337 52.5869
4.45147 51.2086
4.47957 50.5438
4.50767 50.1018
4.53577 49.7482
4.56387 49.3776
4.59197 49.1427
4.62008 48.9033
4.64818 48.7229
4.67628 48.5858
4.70438 48.4414
4.73249 48.3066
4.76059 48.2109
4.7887 48.1405
4.8168 48.1111
4.8449 48.201
4.87301 48.3394
4.90111 48.677
4.92922 49.9015
4.95733 57.7677
4.98543 300.008
5.01354 571.652
5.04164 64.3285
5.06975 50.334
5.09786 48.6738
5.12597 48.1114
5.15407 47.8082
5.18218 47.6364
5.21029 47.5434
5.2384 47.474
5.26651 47.4004
5.29462 47.391
5.32273 47.3863
5.35084 47.4654
5.37895 47.4745
5.40706 47.5953
5.43517 47.833
5.46328 48.2336
5.49139 49.1835
5.5195 52.0141
5.54762 69.0342
5.57573 556.386
5.60384 1314.8
5.63195 87.9509
5.66007 53.0144
5.68818 48.8022
5.7163 47.4157
5.74441 46.7785
5.77253 46.342
5.80064 46.1039
5.82876 45.9141
5.85687 45.784
5.88499 45.6803
5.91311 45.6612
5.94122 45.7042
5.96934 45.7917
5.99746 46.0136
6.02558 46.466
6.0537 48.0402
6.08182 57.012
6.10993 312.108
6.13805 737.291
6.16617 68.1317
6.19429 48.5596
6.22242 46.2306
6.25054 45.4338
6.27866 45.0544
6.30678 44.8079
6.3349 44.6632
6.36303 44.5369
6.39115 44.4467
6.41927 44.3352
6.4474 44.31
6.47552 44.2402
6.50364 44.1832
6.53177 44.163
6.55989 44.1449
6.58802 44.1281
6.61615 44.129
6.64427 44.1012
6.6724 44.1369
6.70053 44.1532
6.72866 44.2217
6.75678 44.1935
6.78491 44.2715
6.81304 44.2775
6.84117 44.349
6.8693 44.4224
6.89743 44.5549
6.92556 44.6987
6.95369 44.884
6.98182 45.1975
7.00996 46.1919
7.03809 53.1262
7.06622 320.929
7.09435 188.41
7.12249 50.003
7.15062 46.0718
7.17876 45.5735
7.20689 45.4625
7.23503 45.447
7.26316 45.5446
7.2913 45.5877
7.31944 45.7543
7.34757 46.0479
7.37571 46.4595
7.40385 47.2477
7.43199 49.2155
7.46013 59.6862
7.48827 367.427
7.51641 878.204
7.54455 76.3033
7.57269 50.4525
7.60083 47.6936
7.62897 46.8868
7.65711 46.4963
7.68525 46.3278
7.7134 46.261
7.74154 46.284
7.76968 46.5539
7.79783 46.78
7.82597 47.5505
7.85412 50.6644
7.88226 87.99
7.91041 804.149
7.93856 153.415
7.96671 52.1369
7.99485 47.5494
8.023 46.518
8.05115 46.1116
8.0793 45.9434
8.10745 45.8296
8.1356 45.8275
8.16375 45.826
8.1919 46.0773
8.22005 46.8235
8.2482 50.0841
8.27636 118.066
8.30451 499.157
8.33266 75.2171
8.36082 48.2867
8.38897 46.3077
8.41713 45.7092
8.44528 45.5961
8.47344 45.3832
8.5016 45.2653
8.52975 45.279
8.55791 45.1185
8.58607 45.1974
8.61423 45.8084
8.64239 50.6715
8.67055 123.76
8.69871 57.2237
8.72687 45.5988
8.75503 45.0686
8.78319 44.9785
8.81136 45.2826
8.83952 45.1089
8.85762 45.6317