Folder: easyXRD/examples/data/28ID-2-C-XRD/far-field-detector/Air-scattering

Note: README.md
# easyXRD

[![image](https://img.shields.io/pypi/v/easyxrd.svg)](https://pypi.python.org/pypi/easyxrd)
[![image](https://img.shields.io/pypi/l/easyxrd.svg)](https://pypi.python.org/pypi/easyxrd)
[![image](https://img.shields.io/pypi/pyversions/easyxrd.svg)](https://pypi.python.org/pypi/easyxrd)



We have developed a versatile X-ray diffraction (XRD) analysis tool that utilizes modern and open-source Python packages such as pyFAI, xarray, pymatgen, pybaselines,... for data processing/storage and interfaced to Jupyter notebooks powered with actively developed visualization packages such as ipywidgets, and matplotlib. It provides easy access to the Materials Project database which hosts thousands of crystal structures that can be used for phase identification - a critical part of XRD analysis - and utilizes [GSAS-II suite](https://github.com/AdvancedPhotonSource/GSAS-II) for XRD refinements in a user-friendly and intuitive manner. Ultimate goal of this tool is to make X-ray diffraction analysis easy for users and help them to process, refine, store, and share their XRD data conveniently.

You can try the tutorial notebooks below on Google Colab:



<a target="_blank"  href="https://colab.research.google.com/github/MehmetTopsakal/easyXRD_examples/blob/main/01_basic.ipynb">
    <img src="https://www.tensorflow.org/images/colab_logo_32px.png" /> 01_basic.ipynb</a> <br>
<a target="_blank"  href="https://colab.research.google.com/github/MehmetTopsakal/easyXRD_examples/blob/main/02_intermediate.ipynb">
    <img src="https://www.tensorflow.org/images/colab_logo_32px.png" /> 02_intermediate.ipynb</a> <br>
<a target="_blank"  href="https://colab.research.google.com/github/MehmetTopsakal/easyXRD_examples/blob/main/03_advanced-part-1.ipynb">
    <img src="https://www.tensorflow.org/images/colab_logo_32px.png" /> 03_advanced-part-1.ipynb</a> <br>
<a target="_blank"  href="https://colab.research.google.com/github/MehmetTopsakal/easyXRD_examples/blob/main/03_advanced-part-2.ipynb">
    <img src="https://www.tensorflow.org/images/colab_logo_32px.png" /> 03_advanced-part-2.ipynb</a> <br>


.... more to come






In order to use `easyXRD` Python package, you need to have a Python environment that can be easily installed through Conda.

You can follow the instructions on this link: https://www.anaconda.com/docs/getting-started/miniconda/install



Examples of environment setup is shown below:

* Linux Bash:

```bash
mkdir -p ~/.miniconda3

wget https://repo.anaconda.com/miniconda/Miniconda3-latest-Linux-x86_64.sh -O ~/.miniconda3/miniconda.sh
bash ~/.miniconda3/miniconda.sh -b -u -p ~/.miniconda3
rm ~/.miniconda3/miniconda.sh

source ~/.miniconda3/bin/activate
conda init --all
```

* Windows PowerShell (After installing, open the “Anaconda Powershell Prompt (miniconda3)”):

```bash
wget "https://repo.anaconda.com/miniconda/Miniconda3-latest-Windows-x86_64.exe" -outfile ".\.miniconda.exe"
Start-Process -FilePath ".\.miniconda.exe" -ArgumentList "/S" -Wait
del .\.min

File: img.xy
1.07717 12.1986
1.13159 12.074
1.18602 11.9189
1.24044 11.7881
1.29487 11.5511
1.3493 11.3458
1.40372 11.1913
1.45815 11.0063
1.51258 10.8545
1.567 10.6061
1.62143 10.4184
1.67586 10.1813
1.73029 10.0727
1.78471 9.85931
1.83914 9.72934
1.89357 9.51449
1.948 9.27571
2.00243 9.1042
2.05686 8.91166
2.11129 8.71874
2.16573 8.5886
2.22016 8.35591
2.27459 8.24312
2.32902 8.03171
2.38346 7.85218
2.43789 7.66094
2.49233 7.51651
2.54676 7.34686
2.6012 7.19453
2.65564 7.02447
2.71007 6.8751
2.76451 6.6946
2.81895 6.48729
2.87339 6.42156
2.92783 6.20781
2.98227 6.11588
3.03671 5.87499
3.09115 5.7848
3.14559 5.63632
3.20004 5.53541
3.25448 5.35044
3.30892 5.24413
3.36337 5.09965
3.41781 4.97575
3.47226 4.83099
3.52671 4.79446
3.58116 4.7157
3.63561 4.58038
3.69006 4.44838
3.74451 4.36773
3.79896 4.28604
3.85341 4.13573
3.90787 4.08471
3.96232 3.96107
4.01677 3.86855
4.07123 3.8071
4.12569 3.75204
4.18015 3.62744
4.2346 3.50741
4.28906 3.45399
4.34353 3.41771
4.39799 3.40301
4.45245 3.24686
4.50691 3.14486
4.56138 3.12941
4.61584 3.0331
4.67031 3.02609
4.72478 2.89732
4.77925 2.90129
4.83372 2.83646
4.88819 2.82377
4.94266 2.76252
4.99714 2.71072
5.05161 2.68089
5.10609 2.62564
5.16056 2.58316
5.21504 2.5695
5.26952 2.57298
5.324 2.46666
5.37848 2.47823
5.43296 2.39462
5.48745 2.35682
5.54193 2.35922
5.59642 2.33933
5.65091 2.2882
5.7054 2.23651
5.75989 2.21903
5.81438 2.23889
5.86887 2.15757
5.92337 2.10129
5.97786 2.15345
6.03236 2.10969
6.08686 2.07986
6.14136 2.11971
6.19586 2.02507
6.25036 2.05503
6.30486 2.02505
6.35937 2.02223
6.41388 2.02463
6.46839 1.98689
6.52289 1.98661
6.57741 1.94275
6.63192 1.92304
6.68643 1.93825
6.74095 1.94412
6.79547 1.95126
6.84998 1.90162
6.90451 1.97553
6.95903 1.95211
7.01355 1.89099
7.06808 1.87996
7.1226 1.89937
7.17713 1.88244
7.23166 1.84835
7.28619 1.86607
7.34073 1.89116
7.39526 1.83661
7.4498 1.86156
7.50433 1.84873
7.55887 1.8614
7.61342 1.81417
7.66796 1.83594
7.72251 1.81406
7.77705 1.82764
7.8316 1.81501
7.88615 1.80947
7.9407 1.82038
7.99526 1.79825
8.04981 1.81371
8.10437 1.78786
8.15893 1.78963
8.21349 1.79498
8.26805 1.77329
8.32262 1.74486
8.37719 1.73705
8.43176 1.74314
8.48633 1.78372
8.5409 1.76517
8.59547 1.73582
8.65005 1.69511
8.70463 1.75077
8.75921 1.77875
8.81379 1.74397
8.86838 1.70673
8.92296 1.72504
8.97755 1.73319
9.03214 1.72924
9.08674 1.70579
9.14133 1.69424
9.19593 1.73243
9.25053 1.67935
9.30513 1.69339
9.35973 1.65531
9.41434 1.69858
9.46894 1.67879
9.52355 1.64646
9.57816 1.6354
9.63278 1.65798
9.68739 1.63589
9.74201 1.64562
9.79663 1.66647
9.85126 1.68265
9.90588 1.64552
9.96051 1.60296
10.0151 1.64828
10.0698 1.59898
10.1244 1.69427
10.179 1.65755
10.2337 1.63371
10.2883 1.64907
10.343 1.62594
10.3976 1.64732
10.4523 1.68777
10.5069 1.62085
10.5616 1.61578
10.6162 1.66931
10.6709 1.65095
10.7255 1.66449
10.7802 1.6729
10.8349 1.6492
10.8895 1.68603
10.9442 1.7074
10.9989 1.64782
11.0535 1.56786
11.1082 1.64807
11.1629 1.67085
11.2176 1.64346
11.2723 1.62368
11.327 1.63427
11.3817 1.66101
11.4363 1.6468
11.491 1.61402
11.5457 1.61108
11.6004 1.63197
11.6551 1.60682
11.7098 1.61754
11.7646 1.62043
11.8193 1.62506
11.874 1.62347
11.9287 1.60233
11.9834 1.6208
12.0381 1.62142
12.0929 1.59799
12.1476 1.61019
12.2023 1.61981
12.2571 1.67709
12.3118 1.59428
12.3665 1.62604
12.4213 1.6099
12.476 1.65766
12.5308 1.6179
12.5855 1.63439
12.6403 1.57361
12.695 1.62632
12.7498 1.62829
12.8046 1.58138
12.8593 1.57481
12.9141 1.60205
12.9689 1.60566
13.0236 1.61504
13.0784 1.67443
13.1332 1.61102
13.188 1.64328
13.2428 1.60585
13.2975 1.60061
13.3523 1.55651
13.4071 1.62114
13.4619 1.61192
13.5167 1.5827
13.5715 1.65194
13.6263 1.62059
13.6812 1.60774
13.736 1.61336
13.7908 1.60935
13.8456 1.62054
13.9004 1.64562
13.9553 1.67085
14.0101 1.5944
14.0649 1.65014
14.1198 1.6294
14.1746 1.66171
14.2294 1.68081
14.2843 1.70163
14.3391 1.63376
14.394 1.65921
14.4488 1.61321
14.5037 1.7082
14.5586 1.72768
14.6134 1.65839
14.6683 1.72166
14.7232 1.7092
14.7781 1.73232
14.8329 1.75576
14.8878 1.76227
14.9427 1.74673
14.9976 1.72845
15.0525 1.82007
15.1074 1.79363
15.1623 1.73515
15.2172 1.79042
15.2721 1.82345
15.327 1.79558
15.3819 1.83779
15.4368 1.83023
15.4918 1.89215
15.5467 1.93434
15.6016 1.74532
15.6565 1.95934
15.7115 1.86987
15.7664 1.83012
15.8214 2.01774
15.8763 1.94354
15.9313 1.84497
15.9862 1.99017
16.0412 1.94832
16.0961 1.91272
16.1511 1.99869
16.2061 1.97637
16.261 1.77523
16.316 1.87141
16.371 1.94367
16.426 1.99403
16.481 2.11426
16.536 1.97916
16.591 1.67417
16.646 2.0053
16.6813 1.86354