Folder: easyXRD/examples/data/28ID-2-C-XRD/far-field-detector/Kapton-background

Note: README.md
# easyXRD

[![image](https://img.shields.io/pypi/v/easyxrd.svg)](https://pypi.python.org/pypi/easyxrd)
[![image](https://img.shields.io/pypi/l/easyxrd.svg)](https://pypi.python.org/pypi/easyxrd)
[![image](https://img.shields.io/pypi/pyversions/easyxrd.svg)](https://pypi.python.org/pypi/easyxrd)



We have developed a versatile X-ray diffraction (XRD) analysis tool that utilizes modern and open-source Python packages such as pyFAI, xarray, pymatgen, pybaselines,... for data processing/storage and interfaced to Jupyter notebooks powered with actively developed visualization packages such as ipywidgets, and matplotlib. It provides easy access to the Materials Project database which hosts thousands of crystal structures that can be used for phase identification - a critical part of XRD analysis - and utilizes [GSAS-II suite](https://github.com/AdvancedPhotonSource/GSAS-II) for XRD refinements in a user-friendly and intuitive manner. Ultimate goal of this tool is to make X-ray diffraction analysis easy for users and help them to process, refine, store, and share their XRD data conveniently.

You can try the tutorial notebooks below on Google Colab:



<a target="_blank"  href="https://colab.research.google.com/github/MehmetTopsakal/easyXRD_examples/blob/main/01_basic.ipynb">
    <img src="https://www.tensorflow.org/images/colab_logo_32px.png" /> 01_basic.ipynb</a> <br>
<a target="_blank"  href="https://colab.research.google.com/github/MehmetTopsakal/easyXRD_examples/blob/main/02_intermediate.ipynb">
    <img src="https://www.tensorflow.org/images/colab_logo_32px.png" /> 02_intermediate.ipynb</a> <br>
<a target="_blank"  href="https://colab.research.google.com/github/MehmetTopsakal/easyXRD_examples/blob/main/03_advanced-part-1.ipynb">
    <img src="https://www.tensorflow.org/images/colab_logo_32px.png" /> 03_advanced-part-1.ipynb</a> <br>
<a target="_blank"  href="https://colab.research.google.com/github/MehmetTopsakal/easyXRD_examples/blob/main/03_advanced-part-2.ipynb">
    <img src="https://www.tensorflow.org/images/colab_logo_32px.png" /> 03_advanced-part-2.ipynb</a> <br>


.... more to come






In order to use `easyXRD` Python package, you need to have a Python environment that can be easily installed through Conda.

You can follow the instructions on this link: https://www.anaconda.com/docs/getting-started/miniconda/install



Examples of environment setup is shown below:

* Linux Bash:

```bash
mkdir -p ~/.miniconda3

wget https://repo.anaconda.com/miniconda/Miniconda3-latest-Linux-x86_64.sh -O ~/.miniconda3/miniconda.sh
bash ~/.miniconda3/miniconda.sh -b -u -p ~/.miniconda3
rm ~/.miniconda3/miniconda.sh

source ~/.miniconda3/bin/activate
conda init --all
```

* Windows PowerShell (After installing, open the “Anaconda Powershell Prompt (miniconda3)”):

```bash
wget "https://repo.anaconda.com/miniconda/Miniconda3-latest-Windows-x86_64.exe" -outfile ".\.miniconda.exe"
Start-Process -FilePath ".\.miniconda.exe" -ArgumentList "/S" -Wait
del .\.min

File: img.xy
1.07717 15.553
1.13159 15.3741
1.18602 15.1405
1.24044 15.1119
1.29487 15.1335
1.3493 15.0284
1.40372 14.8278
1.45815 14.6958
1.51258 14.502
1.567 14.4409
1.62143 14.4719
1.67586 14.5515
1.73029 14.6194
1.78471 14.7322
1.83914 14.817
1.89357 14.9581
1.948 15.1162
2.00243 15.066
2.05686 15.0198
2.11129 14.8302
2.16573 14.6152
2.22016 14.3348
2.27459 13.9522
2.32902 13.625
2.38346 13.1725
2.43789 12.6948
2.49233 12.4116
2.54676 12.0501
2.6012 11.6701
2.65564 11.291
2.71007 10.9333
2.76451 10.6521
2.81895 10.2383
2.87339 10.0816
2.92783 9.75818
2.98227 9.63445
3.03671 9.32958
3.09115 9.02518
3.14559 8.75107
3.20004 8.41499
3.25448 8.27466
3.30892 8.18155
3.36337 7.66065
3.41781 7.48821
3.47226 7.26801
3.52671 7.13236
3.58116 6.83048
3.63561 6.73695
3.69006 6.5326
3.74451 6.43251
3.79896 6.26102
3.85341 6.21676
3.90787 5.96277
3.96232 5.82009
4.01677 5.69935
4.07123 5.64605
4.12569 5.56568
4.18015 5.52982
4.2346 5.39966
4.28906 5.25418
4.34353 5.28161
4.39799 5.17435
4.45245 5.06418
4.50691 5.01448
4.56138 5.00111
4.61584 4.91681
4.67031 4.78715
4.72478 4.75402
4.77925 4.76206
4.83372 4.61483
4.88819 4.55509
4.94266 4.5353
4.99714 4.52212
5.05161 4.40014
5.10609 4.42401
5.16056 4.35258
5.21504 4.36206
5.26952 4.2833
5.324 4.22993
5.37848 4.19876
5.43296 4.41424
5.48745 4.08712
5.54193 4.01397
5.59642 3.98062
5.65091 3.89451
5.7054 3.85488
5.75989 3.81908
5.81438 3.73545
5.86887 3.73221
5.92337 3.75244
5.97786 3.65817
6.03236 3.6481
6.08686 3.70533
6.14136 3.68128
6.19586 3.62642
6.25036 3.59595
6.30486 3.66993
6.35937 3.66356
6.41388 3.57689
6.46839 3.59064
6.52289 3.55731
6.57741 3.53861
6.63192 3.54334
6.68643 3.53245
6.74095 3.54083
6.79547 3.52872
6.84998 3.55854
6.90451 3.48609
6.95903 3.46701
7.01355 3.44636
7.06808 3.49393
7.1226 3.45761
7.17713 3.46522
7.23166 3.46988
7.28619 3.40398
7.34073 3.42552
7.39526 3.42207
7.4498 3.45077
7.50433 3.45997
7.55887 3.40001
7.61342 3.45717
7.66796 3.40228
7.72251 3.33075
7.77705 3.28844
7.8316 3.31734
7.88615 3.30253
7.9407 3.24726
7.99526 3.26162
8.04981 3.22891
8.10437 3.25727
8.15893 3.23001
8.21349 3.19093
8.26805 3.26657
8.32262 3.28162
8.37719 3.24282
8.43176 3.18784
8.48633 3.18205
8.5409 3.13223
8.59547 3.19102
8.65005 3.08819
8.70463 3.01498
8.75921 3.08925
8.81379 3.05355
8.86838 3.01386
8.92296 2.95859
8.97755 2.96903
9.03214 2.96604
9.08674 2.9283
9.14133 2.94697
9.19593 2.96077
9.25053 2.91177
9.30513 2.95557
9.35973 2.86191
9.41434 2.8824
9.46894 2.83956
9.52355 2.82441
9.57816 2.86744
9.63278 2.90444
9.68739 2.77989
9.74201 2.83266
9.79663 2.81683
9.85126 2.76453
9.90588 2.78463
9.96051 2.80605
10.0151 2.77853
10.0698 2.74933
10.1244 2.73993
10.179 2.72815
10.2337 2.75866
10.2883 2.71307
10.343 2.7254
10.3976 2.73487
10.4523 2.71956
10.5069 2.72171
10.5616 2.77645
10.6162 2.70218
10.6709 2.73521
10.7255 2.68976
10.7802 2.72966
10.8349 2.64895
10.8895 2.71054
10.9442 2.69281
10.9989 2.69272
11.0535 2.68881
11.1082 2.65569
11.1629 2.66474
11.2176 2.71887
11.2723 2.64178
11.327 2.67203
11.3817 2.76938
11.4363 2.66957
11.491 2.66696
11.5457 2.65992
11.6004 2.66127
11.6551 2.67609
11.7098 2.65528
11.7646 2.67542
11.8193 2.61045
11.874 2.60166
11.9287 2.66485
11.9834 2.68275
12.0381 2.70271
12.0929 2.736
12.1476 2.70546
12.2023 2.68615
12.2571 2.73708
12.3118 2.73087
12.3665 2.70124
12.4213 2.69997
12.476 2.74554
12.5308 2.77048
12.5855 2.71437
12.6403 2.74786
12.695 2.81401
12.7498 2.76801
12.8046 2.8201
12.8593 2.82136
12.9141 2.81826
12.9689 2.82248
13.0236 2.84461
13.0784 2.83387
13.1332 2.85628
13.188 2.88967
13.2428 2.84046
13.2975 2.92431
13.3523 2.82804
13.4071 2.8818
13.4619 2.88453
13.5167 2.86871
13.5715 2.97218
13.6263 2.85611
13.6812 2.79256
13.736 2.84082
13.7908 2.82208
13.8456 2.79396
13.9004 2.85777
13.9553 2.81816
14.0101 2.88616
14.0649 2.8159
14.1198 2.85962
14.1746 2.84779
14.2294 2.87393
14.2843 2.88059
14.3391 2.89657
14.394 2.93907
14.4488 2.92565
14.5037 2.85412
14.5586 2.86312
14.6134 2.87016
14.6683 2.88329
14.7232 2.8875
14.7781 3.0031
14.8329 2.92169
14.8878 2.92588
14.9427 2.94318
14.9976 2.87303
15.0525 2.86363
15.1074 2.87898
15.1623 2.79159
15.2172 2.93281
15.2721 2.86001
15.327 2.83767
15.3819 2.80586
15.4368 2.9553
15.4918 2.90541
15.5467 2.96386
15.6016 3.018
15.6565 3.05275
15.7115 3.09247
15.7664 3.19213
15.8214 3.09383
15.8763 3.11338
15.9313 3.04639
15.9862 3.1996
16.0412 3.0816
16.0961 2.91227
16.1511 3.06738
16.2061 3.18867
16.261 3.26552
16.316 3.43129
16.371 3.02371
16.426 3.13577
16.481 2.87083
16.536 2.56709
16.591 3.14969
16.646 3.13782
16.6813 2.65817