Folder: easyXRD/examples/data/28ID-2-C-XRD/far-field-detector/NIST-LaB6

Note: README.md
# easyXRD

[![image](https://img.shields.io/pypi/v/easyxrd.svg)](https://pypi.python.org/pypi/easyxrd)
[![image](https://img.shields.io/pypi/l/easyxrd.svg)](https://pypi.python.org/pypi/easyxrd)
[![image](https://img.shields.io/pypi/pyversions/easyxrd.svg)](https://pypi.python.org/pypi/easyxrd)



We have developed a versatile X-ray diffraction (XRD) analysis tool that utilizes modern and open-source Python packages such as pyFAI, xarray, pymatgen, pybaselines,... for data processing/storage and interfaced to Jupyter notebooks powered with actively developed visualization packages such as ipywidgets, and matplotlib. It provides easy access to the Materials Project database which hosts thousands of crystal structures that can be used for phase identification - a critical part of XRD analysis - and utilizes [GSAS-II suite](https://github.com/AdvancedPhotonSource/GSAS-II) for XRD refinements in a user-friendly and intuitive manner. Ultimate goal of this tool is to make X-ray diffraction analysis easy for users and help them to process, refine, store, and share their XRD data conveniently.

You can try the tutorial notebooks below on Google Colab:



<a target="_blank"  href="https://colab.research.google.com/github/MehmetTopsakal/easyXRD_examples/blob/main/01_basic.ipynb">
    <img src="https://www.tensorflow.org/images/colab_logo_32px.png" /> 01_basic.ipynb</a> <br>
<a target="_blank"  href="https://colab.research.google.com/github/MehmetTopsakal/easyXRD_examples/blob/main/02_intermediate.ipynb">
    <img src="https://www.tensorflow.org/images/colab_logo_32px.png" /> 02_intermediate.ipynb</a> <br>
<a target="_blank"  href="https://colab.research.google.com/github/MehmetTopsakal/easyXRD_examples/blob/main/03_advanced-part-1.ipynb">
    <img src="https://www.tensorflow.org/images/colab_logo_32px.png" /> 03_advanced-part-1.ipynb</a> <br>
<a target="_blank"  href="https://colab.research.google.com/github/MehmetTopsakal/easyXRD_examples/blob/main/03_advanced-part-2.ipynb">
    <img src="https://www.tensorflow.org/images/colab_logo_32px.png" /> 03_advanced-part-2.ipynb</a> <br>


.... more to come






In order to use `easyXRD` Python package, you need to have a Python environment that can be easily installed through Conda.

You can follow the instructions on this link: https://www.anaconda.com/docs/getting-started/miniconda/install



Examples of environment setup is shown below:

* Linux Bash:

```bash
mkdir -p ~/.miniconda3

wget https://repo.anaconda.com/miniconda/Miniconda3-latest-Linux-x86_64.sh -O ~/.miniconda3/miniconda.sh
bash ~/.miniconda3/miniconda.sh -b -u -p ~/.miniconda3
rm ~/.miniconda3/miniconda.sh

source ~/.miniconda3/bin/activate
conda init --all
```

* Windows PowerShell (After installing, open the “Anaconda Powershell Prompt (miniconda3)”):

```bash
wget "https://repo.anaconda.com/miniconda/Miniconda3-latest-Windows-x86_64.exe" -outfile ".\.miniconda.exe"
Start-Process -FilePath ".\.miniconda.exe" -ArgumentList "/S" -Wait
del .\.min

File: img.xy
1.07717 20.8209
1.13159 20.6823
1.18602 20.5472
1.24044 20.4626
1.29487 20.4973
1.3493 20.4312
1.40372 20.3172
1.45815 20.1889
1.51258 19.9554
1.567 19.7182
1.62143 19.6271
1.67586 19.5158
1.73029 19.4625
1.78471 19.4242
1.83914 19.4128
1.89357 19.3757
1.948 19.4148
2.00243 19.3111
2.05686 19.2544
2.11129 19.1286
2.16573 18.973
2.22016 18.8471
2.27459 18.6765
2.32902 18.5439
2.38346 18.5038
2.43789 18.9177
2.49233 387.198
2.54676 19.118
2.6012 17.7031
2.65564 17.2285
2.71007 16.9132
2.76451 16.6266
2.81895 16.4112
2.87339 16.28
2.92783 16.0375
2.98227 15.9293
3.03671 15.7903
3.09115 15.6018
3.14559 15.3758
3.20004 15.1461
3.25448 15.0363
3.30892 14.9166
3.36337 14.813
3.41781 15.0049
3.47226 16.0363
3.52671 587.244
3.58116 16.8949
3.63561 14.496
3.69006 13.9007
3.74451 13.5856
3.79896 13.3764
3.85341 13.2615
3.90787 12.9996
3.96232 12.9087
4.01677 12.8862
4.07123 12.7665
4.12569 12.6672
4.18015 12.7231
4.2346 12.8437
4.28906 14.3306
4.34353 153.993
4.39799 12.9658
4.45245 12.4102
4.50691 12.1938
4.56138 12.1102
4.61584 12.0808
4.67031 11.9719
4.72478 11.9236
4.77925 11.9373
4.83372 11.8752
4.88819 11.9501
4.94266 12.3552
4.99714 166.229
5.05161 12.3824
5.10609 11.9287
5.16056 11.8141
5.21504 11.7587
5.26952 11.704
5.324 11.753
5.37848 11.7082
5.43296 11.7493
5.48745 11.9514
5.54193 13.0756
5.59642 331.767
5.65091 12.5214
5.7054 11.7547
5.75989 11.4653
5.81438 11.3674
5.86887 11.3655
5.92337 11.3639
5.97786 11.3922
6.03236 11.4587
6.08686 12.7176
6.14136 83.7637
6.19586 11.593
6.25036 11.2465
6.30486 11.1676
6.35937 11.0871
6.41388 11.0557
6.46839 11.0457
6.52289 11.0167
6.57741 10.9363
6.63192 10.9678
6.68643 10.9808
6.74095 11.0052
6.79547 10.9915
6.84998 11.01
6.90451 11.0051
6.95903 11.1093
7.01355 11.2975
7.06808 72.723
7.1226 11.3872
7.17713 11.1374
7.23166 11.1382
7.28619 11.1401
7.34073 11.1986
7.39526 11.35
7.4498 11.9261
7.50433 200.3
7.55887 11.9147
7.61342 11.3223
7.66796 11.2101
7.72251 11.0398
7.77705 11.0901
7.8316 11.2338
7.88615 30.5992
7.9407 17.2313
7.99526 11.133
8.04981 10.9609
8.10437 10.9024
8.15893 10.9061
8.21349 10.9914
8.26805 15.7495
8.32262 23.1109
8.37719 10.8641
8.43176 10.705
8.48633 10.5627
8.5409 10.4958
8.59547 10.5312
8.65005 16.454
8.70463 10.518
8.75921 10.4118
8.81379 10.3531
8.86838 10.3136
8.92296 10.3602
8.97755 10.6139
9.03214 46.6221
9.08674 10.4394
9.14133 10.3402
9.19593 10.2817
9.25053 10.2875
9.30513 10.6632
9.35973 95.9661
9.41434 10.6629
9.46894 10.3081
9.52355 10.1532
9.57816 10.1551
9.63278 10.1478
9.68739 10.1127
9.74201 10.1092
9.79663 10.0741
9.85126 10.0334
9.90588 10.0867
9.96051 10.2133
10.0151 23.1905
10.0698 10.1789
10.1244 10.1479
10.179 10.1461
10.2337 10.3174
10.2883 14.6138
10.343 30.7526
10.3976 10.3439
10.4523 10.2392
10.5069 10.2546
10.5616 10.4263
10.6162 56.7188
10.6709 10.5385
10.7255 10.2466
10.7802 10.1943
10.8349 10.2289
10.8895 16.6136
10.9442 11.385
10.9989 10.244
11.0535 10.1601
11.1082 10.1543
11.1629 11.5052
11.2176 23.0789
11.2723 10.2224
11.327 10.2561
11.3817 10.3211
11.4363 11.4263
11.491 46.2392
11.5457 10.4434
11.6004 10.2775
11.6551 10.2513
11.7098 11.0964
11.7646 24.6123
11.8193 10.213
11.874 10.2404
11.9287 10.2029
11.9834 10.1715
12.0381 10.1753
12.0929 10.2096
12.1476 10.1892
12.2023 10.3701
12.2571 19.1137
12.3118 10.5516
12.3665 10.376
12.4213 10.4343
12.476 10.4671
12.5308 21.0564
12.5855 10.5337
12.6403 10.5088
12.695 10.6597
12.7498 27.7483
12.8046 19.0484
12.8593 10.7413
12.9141 10.6649
12.9689 10.8243
13.0236 28.3571
13.0784 10.7274
13.1332 10.6612
13.188 10.601
13.2428 10.6145
13.2975 10.6637
13.3523 10.6972
13.4071 10.778
13.4619 14.2667
13.5167 31.7542
13.5715 10.9155
13.6263 10.7692
13.6812 10.8591
13.736 21.1671
13.7908 10.8268
13.8456 10.8016
13.9004 10.7985
13.9553 10.7356
14.0101 10.7338
14.0649 10.8205
14.1198 10.8601
14.1746 16.1101
14.2294 10.975
14.2843 10.9485
14.3391 11.0695
14.394 28.9256
14.4488 11.2791
14.5037 11.0256
14.5586 11.1285
14.6134 28.3439
14.6683 11.3065
14.7232 11.0597
14.7781 11.1238
14.8329 25.0229
14.8878 11.1945
14.9427 11.0368
14.9976 11.1593
15.0525 19.1521
15.1074 11.1316
15.1623 11.1305
15.2172 11.4603
15.2721 15.0816
15.327 11.1895
15.3819 11.2329
15.4368 18.1708
15.4918 16.5151
15.5467 11.3236
15.6016 11.2275
15.6565 11.2655
15.7115 11.3039
15.7664 11.2763
15.8214 11.3621
15.8763 16.5282
15.9313 11.2916
15.9862 11.4494
16.0412 21.8487
16.0961 17.985
16.1511 11.4056
16.2061 11.3657
16.261 18.0408
16.316 11.4728
16.371 11.2967
16.426 12.5232
16.481 13.4214
16.536 11.0099
16.591 11.2245
16.646 14.2319
16.6813 11.8687