Folder: easyXRD/examples/data/28ID-2-C-XRD/far-field-detector/NIST-CeO2

Note: README.md
# easyXRD

[![image](https://img.shields.io/pypi/v/easyxrd.svg)](https://pypi.python.org/pypi/easyxrd)
[![image](https://img.shields.io/pypi/l/easyxrd.svg)](https://pypi.python.org/pypi/easyxrd)
[![image](https://img.shields.io/pypi/pyversions/easyxrd.svg)](https://pypi.python.org/pypi/easyxrd)



We have developed a versatile X-ray diffraction (XRD) analysis tool that utilizes modern and open-source Python packages such as pyFAI, xarray, pymatgen, pybaselines,... for data processing/storage and interfaced to Jupyter notebooks powered with actively developed visualization packages such as ipywidgets, and matplotlib. It provides easy access to the Materials Project database which hosts thousands of crystal structures that can be used for phase identification - a critical part of XRD analysis - and utilizes [GSAS-II suite](https://github.com/AdvancedPhotonSource/GSAS-II) for XRD refinements in a user-friendly and intuitive manner. Ultimate goal of this tool is to make X-ray diffraction analysis easy for users and help them to process, refine, store, and share their XRD data conveniently.

You can try the tutorial notebooks below on Google Colab:



<a target="_blank"  href="https://colab.research.google.com/github/MehmetTopsakal/easyXRD_examples/blob/main/01_basic.ipynb">
    <img src="https://www.tensorflow.org/images/colab_logo_32px.png" /> 01_basic.ipynb</a> <br>
<a target="_blank"  href="https://colab.research.google.com/github/MehmetTopsakal/easyXRD_examples/blob/main/02_intermediate.ipynb">
    <img src="https://www.tensorflow.org/images/colab_logo_32px.png" /> 02_intermediate.ipynb</a> <br>
<a target="_blank"  href="https://colab.research.google.com/github/MehmetTopsakal/easyXRD_examples/blob/main/03_advanced-part-1.ipynb">
    <img src="https://www.tensorflow.org/images/colab_logo_32px.png" /> 03_advanced-part-1.ipynb</a> <br>
<a target="_blank"  href="https://colab.research.google.com/github/MehmetTopsakal/easyXRD_examples/blob/main/03_advanced-part-2.ipynb">
    <img src="https://www.tensorflow.org/images/colab_logo_32px.png" /> 03_advanced-part-2.ipynb</a> <br>


.... more to come






In order to use `easyXRD` Python package, you need to have a Python environment that can be easily installed through Conda.

You can follow the instructions on this link: https://www.anaconda.com/docs/getting-started/miniconda/install



Examples of environment setup is shown below:

* Linux Bash:

```bash
mkdir -p ~/.miniconda3

wget https://repo.anaconda.com/miniconda/Miniconda3-latest-Linux-x86_64.sh -O ~/.miniconda3/miniconda.sh
bash ~/.miniconda3/miniconda.sh -b -u -p ~/.miniconda3
rm ~/.miniconda3/miniconda.sh

source ~/.miniconda3/bin/activate
conda init --all
```

* Windows PowerShell (After installing, open the “Anaconda Powershell Prompt (miniconda3)”):

```bash
wget "https://repo.anaconda.com/miniconda/Miniconda3-latest-Windows-x86_64.exe" -outfile ".\.miniconda.exe"
Start-Process -FilePath ".\.miniconda.exe" -ArgumentList "/S" -Wait
del .\.min

File: img.xy
1.07717 25.3698
1.13159 25.2938
1.18602 25.1562
1.24044 25.1267
1.29487 25.1381
1.3493 24.92
1.40372 24.9307
1.45815 24.7369
1.51258 24.5497
1.567 24.3465
1.62143 24.2568
1.67586 24.2407
1.73029 24.2228
1.78471 24.2077
1.83914 24.1048
1.89357 24.0516
1.948 24.0887
2.00243 23.977
2.05686 23.9704
2.11129 23.8049
2.16573 23.7314
2.22016 23.5768
2.27459 23.3985
2.32902 23.178
2.38346 22.9997
2.43789 22.8027
2.49233 22.814
2.54676 22.6629
2.6012 22.4499
2.65564 22.3006
2.71007 22.2309
2.76451 22.0584
2.81895 21.924
2.87339 21.8785
2.92783 21.8575
2.98227 21.919
3.03671 21.8883
3.09115 21.8374
3.14559 22.051
3.20004 22.4499
3.25448 24.4525
3.30892 534.996
3.36337 31.3943
3.41781 22.6949
3.47226 21.2954
3.52671 20.8335
3.58116 20.3827
3.63561 20.2141
3.69006 20.0164
3.74451 20.1892
3.79896 22.0454
3.85341 218.159
3.90787 20.0535
3.96232 19.2709
4.01677 18.98
4.07123 18.7165
4.12569 18.581
4.18015 18.4203
4.2346 18.3357
4.28906 18.3645
4.34353 18.2332
4.39799 18.0761
4.45245 17.8914
4.50691 17.9094
4.56138 17.9143
4.61584 17.8524
4.67031 17.7997
4.72478 17.7569
4.77925 17.7905
4.83372 17.772
4.88819 17.783
4.94266 17.8849
4.99714 17.878
5.05161 17.8597
5.10609 17.9779
5.16056 18.0681
5.21504 18.3011
5.26952 18.4985
5.324 19.0995
5.37848 21.6107
5.43296 895.652
5.48745 21.3211
5.54193 19.0176
5.59642 18.4338
5.65091 18.0955
5.7054 17.9347
5.75989 17.8736
5.81438 17.7994
5.86887 17.7903
5.92337 17.7356
5.97786 17.7889
6.03236 17.8091
6.08686 17.9519
6.14136 18.0047
6.19586 18.1819
6.25036 18.5966
6.30486 19.9791
6.35937 519.77
6.41388 22.5455
6.46839 18.8658
6.52289 18.2385
6.57741 18.2005
6.63192 43.6303
6.68643 20.5231
6.74095 17.7036
6.79547 17.5005
6.84998 17.3755
6.90451 17.2801
6.95903 17.2531
7.01355 17.2058
7.06808 17.1626
7.1226 17.0651
7.17713 16.9828
7.23166 17.0008
7.28619 16.9521
7.34073 16.9101
7.39526 16.9648
7.4498 16.987
7.50433 17.0072
7.55887 17.0824
7.61342 17.2997
7.66796 72.419
7.72251 18.508
7.77705 17.0374
7.8316 16.8874
7.88615 16.8645
7.9407 16.8119
7.99526 16.8255
8.04981 16.8096
8.10437 16.8818
8.15893 16.9619
8.21349 17.1232
8.26805 17.409
8.32262 18.3474
8.37719 263.957
8.43176 18.4306
8.48633 17.4828
8.5409 17.803
8.59547 168.911
8.65005 17.5357
8.70463 16.8776
8.75921 16.6516
8.81379 16.5242
8.86838 16.4741
8.92296 16.352
8.97755 16.3208
9.03214 16.3415
9.08674 16.3359
9.14133 16.3387
9.19593 16.3619
9.25053 16.4028
9.30513 16.6429
9.35973 17.4308
9.41434 211.471
9.46894 17.5356
9.52355 16.537
9.57816 16.3132
9.63278 16.2981
9.68739 16.1656
9.74201 16.1866
9.79663 16.1883
9.85126 16.247
9.90588 16.5949
9.96051 40.9241
10.0151 41.1956
10.0698 16.5589
10.1244 16.1601
10.179 15.9721
10.2337 15.9245
10.2883 15.795
10.343 15.7501
10.3976 15.7778
10.4523 15.7405
10.5069 15.7936
10.5616 15.8028
10.6162 15.8115
10.6709 15.9006
10.7255 15.9454
10.7802 16.0709
10.8349 16.8899
10.8895 62.1344
10.9442 16.3062
10.9989 16.1657
11.0535 16.1372
11.1082 16.1927
11.1629 16.2481
11.2176 16.4926
11.2723 16.6202
11.327 17.7213
11.3817 153.599
11.4363 17.6757
11.491 17.4005
11.5457 75.9274
11.6004 16.8272
11.6551 16.5074
11.7098 16.3941
11.7646 16.3127
11.8193 16.2683
11.874 16.2844
11.9287 16.3097
11.9834 16.3804
12.0381 16.4152
12.0929 16.6802
12.1476 59.9821
12.2023 20.7249
12.2571 16.6775
12.3118 16.5381
12.3665 16.4598
12.4213 16.4321
12.476 16.5225
12.5308 16.6812
12.5855 23.9113
12.6403 40.6164
12.695 16.9916
12.7498 44.2948
12.8046 17.618
12.8593 16.6737
12.9141 16.5841
12.9689 16.6574
13.0236 16.5635
13.0784 16.5848
13.1332 16.5608
13.188 16.6462
13.2428 16.6667
13.2975 17.7948
13.3523 28.3542
13.4071 16.8454
13.4619 16.9016
13.5167 16.9077
13.5715 17.0653
13.6263 17.1641
13.6812 17.5383
13.736 76.1342
13.7908 19.2805
13.8456 19.4174
13.9004 36.2536
13.9553 17.3955
14.0101 17.2352
14.0649 17.2509
14.1198 17.317
14.1746 17.3476
14.2294 17.3989
14.2843 17.5569
14.3391 17.8978
14.394 73.3011
14.4488 23.6364
14.5037 17.7494
14.5586 17.6278
14.6134 17.6165
14.6683 17.6689
14.7232 17.9609
14.7781 77.7206
14.8329 24.5675
14.8878 17.6684
14.9427 17.5171
14.9976 17.3715
15.0525 17.3371
15.1074 17.3838
15.1623 17.242
15.2172 17.4034
15.2721 17.2816
15.327 17.3992
15.3819 19.276
15.4368 21.117
15.4918 17.5361
15.5467 17.5234
15.6016 17.5653
15.6565 17.5895
15.7115 17.9606
15.7664 35.5881
15.8214 18.3635
15.8763 42.2121
15.9313 19.7716
15.9862 17.986
16.0412 17.8406
16.0961 17.7839
16.1511 17.883
16.2061 17.8957
16.261 18.248
16.316 21.5579
16.371 44.5067
16.426 18.3767
16.481 18.1791
16.536 17.863
16.591 18.2018
16.646 18.7676
16.6813 48.2705